Folder: IEEEPolybot/DichroicRatioFromUVData-master 2/DataParse2

Note: DichroicRatioFromUVData-master 2/README.md
# DichroicRatioFromUVData

After downloading the files from this repository install the dependancies using the command

```pip install -r requirements.txt```

(Best to do this in a conda environment)

In dataparser.ipynb change the directory from 

```data = pd.read_csv("/Users/evancosta/Desktop/DataParse2/12-13.csv")```

to wherever the csv file is in your computer 

Also, in the last line of dataparser.ipynb change

```dataframe = pd.read_excel('uv-vis.xlsx')```

and 

```dataframe.to_excel(r'/Users/evancosta/Desktop/DataParse2/uv-vis.xlsx', sheet_name='Your sheet name', index = False)```

to the file and directory of the file you want to write to.

File: 12-13.csv
pdms,,pdms-0,,pdms-90,,30-10,,30-10-0,,30-10-90,,30-10-90-2,,30-10-0-2,,
Wavelength (nm),Abs,Wavelength (nm),Abs,Wavelength (nm),Abs,Wavelength (nm),Abs,Wavelength (nm),Abs,Wavelength (nm),Abs,Wavelength (nm),Abs,Wavelength (nm),Abs,
1100,0.00407816,1100,0.250715,1100,0.52191,1100,0.035761,1100,0.277045,1100,0.555055,1100,0.552606,1100,0.276868,
1091,0.00465595,1091,0.259931,1091,0.508624,1091,0.0378315,1091,0.287479,1091,0.543038,1091,0.539545,1091,0.286023,
1082,0.00351816,1082,0.265031,1082,0.497678,1082,0.0380868,1082,0.293626,1082,0.533238,1082,0.529452,1082,0.29157,
1073,0.00381749,1073,0.269875,1073,0.492023,1073,0.0391867,1073,0.299241,1073,0.528513,1073,0.525019,1073,0.297416,
1064,0.00276611,1064,0.272914,1064,0.48414,1064,0.038522,1064,0.302561,1064,0.521349,1064,0.519212,1064,0.302406,
1055,-0.00603553,1055,0.268117,1055,0.468807,1055,0.0310956,1055,0.299321,1055,0.507337,1055,0.506208,1055,0.299779,
1046,-0.0123609,1046,0.266537,1046,0.456474,1046,0.0283114,1046,0.300642,1046,0.49745,1046,0.494508,1046,0.298172,
1037,0.00334925,1037,0.287568,1037,0.466505,1037,0.0443764,1037,0.321649,1037,0.509119,1037,0.505757,1037,0.319854,
1028,-0.0115466,1028,0.276702,1028,0.445012,1028,0.0319113,1028,0.313388,1028,0.48963,1028,0.487601,1028,0.312067,
1019,0.00427073,1019,0.29828,1019,0.454666,1019,0.0492706,1019,0.335757,1019,0.501766,1019,0.499149,1019,0.334647,
1010,-0.00612656,1010,0.293005,1010,0.437835,1010,0.0435686,1010,0.334519,1010,0.488769,1010,0.484686,1010,0.331019,
1001,-0.0118584,1001,0.292358,1001,0.425419,1001,0.0401255,1001,0.336034,1001,0.479428,1001,0.477125,1001,0.334462,
992,-0.0100071,992,0.300058,992,0.420446,992,0.045017,992,0.346371,992,0.478515,992,0.476991,992,0.345797,
983,-0.0093458,983,0.306969,983,0.414064,983,0.0498728,983,0.356886,983,0.477082,983,0.475638,983,0.35633,
974,-0.0118428,974,0.31134,974,0.404302,974,0.0533458,974,0.36621,974,0.47352,974,0.4711,974,0.364249,
965,-0.00670958,965,0.324214,965,0.401871,965,0.065378,965,0.384399,965,0.478054,965,0.473979,965,0.38057,
956,0.00185379,956,0.340977,956,0.402274,956,0.0788756,956,0.404813,956,0.485284,956,0.482522,956,0.403176,
947,-0.0113124,947,0.335854,947,0.379968,947,0.0737167,947,0.406699,947,0.471621,947,0.468765,947,0.40427,
938,0.000317711,938,0.357409,938,0.38272,938,0.0923842,938,0.433322,938,0.48303,938,0.480698,938,0.431991,
929,-0.00196908,929,0.365613,929,0.370835,929,0.100403,929,0.449535,929,0.481819,929,0.477329,929,0.445391,
920,-0.00753388,920,0.37083,920,0.35522,920,0.104395,920,0.462219,920,0.476967,920,0.472692,920,0.45791,
911,-0.00537634,911,0.38498,911,0.347071,911,0.116887,911,0.484026,911,0.480552,911,0.476041,911,0.47939,
902,-0.00180407,902,0.401745,902,0.340236,902,0.131672,902,0.50849,902,0.486324,902,0.481374,902,0.503582,
893,-0.000426185,893,0.416965,893,0.330875,893,0.144022,893,0.531006,893,0.490005,893,0.485937,893,0.527293,
884,-0.00812355,884,0.423334,884,0.31225,884,0.149167,884,0.546407,884,0.485524,884,0.481074,884,0.541763,
875,-0.00207018,875,0.44483,875,0.308095,875,0.167903,875,0.575623,875,0.495402,875,0.490407,875,0.570641,
866,-0.00415526,866,0.457793,866,0.296023,866,0.178372,866,0.596278,866,0.496878,866,0.490862,866,0.589724,
857,-0.00531952,857,0.471045,857,0.285696,857,0.187437,857,0.615336,857,0.497743,857,0.49145,857,0.608285,
848,-0.00481892,848,0.485253,848,0.278268,848,0.195019,848,0.632947,848,0.49782,848,0.491372,848,0.625464,
839,-0.00450627,839,0.497769,839,0.271797,839,0.19845,839,0.64625,839,0.494467,839,0.488183,839,0.638696,
830,-0.00503344,830,0.507602,830,0.265643,830,0.197637,830,0.654858,830,0.487731,830,0.4817,830,0.647317,
821,-0.00487293,821,0.516459,821,0.261327,821,0.195279,821,0.661335,821,0.480502,821,0.474764,821,0.653991,
812,-0.00489914,812,0.523929,812,0.257756,812,0.192207,812,0.666066,812,0.473321,812,0.467906,812,0.658865,
803,-0.0049425,803,0.530929,803,0.254756,803,0.189413,803,0.670858,803,0.467173,803,0.462143,803,0.663916,
794,-0.0030657,794,0.182928,794,0.714222,794,0.1529,794,0.318825,794,0.918097,794,0.921431,794,0.323731,
785,-0.00314718,785,0.181744,785,0.716402,785,0.151351,785,0.316494,785,0.918371,785,0.922264,785,0.321709,
776,-0.0032035,776,0.180456,776,0.72014,776,0.149942,776,0.314269,776,0.920306,776,0.924359,776,0.319332,
767,-0.00333777,767,0.178784,767,0.725115,767,0.14782,767,0.310939,767,0.923,767,0.926705,767,0.316139,
758,-0.00336654,758,0.176732,758,0.731392,758,0.144466,758,0.306181,758,0.925248,758,0.929111,758,0.311634,
749,-0.00314687,749,0.17463,749,0.739582,749,0.140057,749,0.300473,749,0.92731,749,0.931576,749,0.306151,
740,-0.00308647,740,0.171954,740,0.749703,740,0.134546,740,0.29319,740,0.930213,740,0.934469,740,0.299102,
731,-0.00333294,731,0.168068,731,0.762073,731,0.127891,731,0.284243,731,0.93393,731,0.93862,731,0.290364,
722,-0.00352576,722,0.163702,722,0.777885,722,0.121048,722,0.274434,722,0.940784,722,0.945896,722,0.28112,
713,-0.00350933,713,0.15894,713,0.798123,713,0.114524,713,0.264332,713,0.952281,713,0.957309,713,0.271397,
704,-0.00345771,704,0.153404,704,0.823383,704,0.108191,704,0.253472,704,0.969134,704,0.974203,704,0.26101,
695,-0.00343306,695,0.146872,695,0.854488,695,0.101987,695,0.242095,695,0.992024,695,0.997036,695,0.250009,
686,-0.00352587,686,0.139927,686,0.891961,686,0.0959594,686,0.230192,686,1.02172,686,1.02655,686,0.238488,
677,-0.00346449,677,0.133037,677,0.934382,677,0.0900168,677,0.218441,677,1.05633,677,1.06078,677,0.227143,
668,-0.00355051,668,0.127161,668,0.97621,668,0.0843005,668,0.207809,668,1.09053,668,1.09489,668,0.216949,
659,-0.00352653,659,0.123889,659,1.00572,659,0.0789633,659,0.199727,659,1.11312,659,1.11735,659,0.209469,
650,-0.00339659,650,0.124874,650,1.0058,650,0.0742629,650,0.1961,650,1.10669,650,1.11164,650,0.206477,
641,-0.00349069,641,0.131203,641,0.966682,641,0.0699871,641,0.19828,641,1.06152,641,1.06767,641,0.209184,
632,-0.00338,632,0.142058,632,0.906414,632,0.0666143,632,0.205143,632,0.995711,632,1.00303,632,0.216498,
623,-0.00339361,623,0.150479,623,0.864778,623,0.0630424,623,0.21001,623,0.948674,623,0.956599,623,0.221563,
614,-0.00348221,614,0.149243,614,0.87296,614,0.059108,614,0.205358,614,0.951916,614,0.959803,614,0.216876,
605,-0.00339977,605,0.142931,605,0.910404,605,0.0556748,605,0.196065,605,0.984894,605,0.992713,605,0.207713,
596,-0.00331845,596,0.149308,596,0.880048,596,0.0531958,596,0.199844,596,0.950745,596,0.959444,596,0.211853,
587,-0.00338662,587,0.175483,587,0.769006,587,0.0516192,587,0.223683,587,0.836267,587,0.846104,587,0.235912,
578,-0.00328814,578,0.207783,578,0.668078,578,0.0502646,578,0.253965,578,0.732276,578,0.742871,578,0.266314,
569,-0.0033744,569,0.234349,569,0.604216,569,0.0490652,569,0.278923,569,0.665884,569,0.676885,569,0.291679,
560,-0.00328855,560,0.242605,560,0.588264,560,0.0477864,560,0.285755,560,0.647884,560,0.658935,560,0.298801,
551,-0.00329626,551,0.247057,551,0.580587,551,0.0466206,551,0.289236,551,0.638812,551,0.649969,551,0.302451,
542,-0.00342335,542,0.244387,542,0.588118,542,0.0454795,542,0.285776,542,0.64508,542,0.656323,542,0.299032,
533,-0.00343722,533,0.239519,533,0.600447,533,0.0447643,533,0.280326,533,0.656698,533,0.668005,533,0.293938,
524,-0.00342823,524,0.236814,524,0.608982,524,0.0443243,524,0.277194,524,0.664747,524,0.676026,524,0.291128,
515,-0.00340907,515,0.234017,515,0.617131,515,0.0440326,515,0.274333,515,0.672703,515,0.684166,515,0.288557,
506,-0.0034308,506,0.231151,506,0.626196,506,0.0440159,506,0.271468,506,0.682,506,0.693349,506,0.286117,
497,-0.00336551,497,0.228116,497,0.636113,497,0.0443106,497,0.268719,497,0.692288,497,0.703766,497,0.283767,
488,-0.00338025,488,0.225141,488,0.646484,488,0.0446556,488,0.266014,488,0.703399,488,0.714814,488,0.281574,
479,-0.00335611,479,0.2219,479,0.657895,479,0.0450806,479,0.263221,479,0.715486,479,0.726969,479,0.279285,
470,-0.00336027,470,0.218077,470,0.671596,470,0.0452953,470,0.259728,470,0.729756,470,0.741291,470,0.2762,
461,-0.00328382,461,0.213905,461,0.68689,461,0.0454138,461,0.255731,461,0.745626,461,0.757207,461,0.272715,
452,-0.00332955,452,0.210954,452,0.699552,452,0.0451163,452,0.252532,452,0.758155,452,0.769807,452,0.270124,
443,-0.0033018,443,0.211173,443,0.702983,443,0.044743,443,0.252429,443,0.761092,443,0.772923,443,0.270717,
434,-0.00329168,434,0.215694,434,0.694009,434,0.0442049,434,0.256306,434,0.751385,434,0.763307,434,0.275375,
425,-0.00331814,425,0.224749,425,0.672543,425,0.043554,425,0.264532,425,0.72869,425,0.74071,425,0.284538,
416,-0.00324297,416,0.240763,416,0.635854,416,0.0429633,416,0.279783,416,0.690568,416,0.702696,416,0.300482,
407,-0.00308549,407,0.258513,407,0.600852,407,0.0422177,407,0.296669,407,0.654224,407,0.666431,407,0.318009,
398,-0.00302272,398,0.269159,398,0.584602,398,0.0416284,398,0.306797,398,0.636573,398,0.648816,398,0.328654,
389,-0.00298324,389,0.272314,389,0.583904,389,0.0409287,389,0.30936,389,0.634838,389,0.647049,389,0.331685,
380,-0.00296046,380,0.27182,380,0.58995,380,0.0401313,380,0.308042,380,0.639512,380,0.651624,380,0.330941,
371,-0.00267267,371,0.270693,371,0.595799,371,0.0395415,371,0.306284,371,0.644225,371,0.656449,371,0.329469,
362,-0.00248507,362,0.274686,362,0.592585,362,0.0388081,362,0.309302,362,0.639425,362,0.651369,362,0.333063,
353,-0.00234246,353,0.294925,353,0.559889,353,0.0378168,353,0.328587,353,0.604942,353,0.616968,353,0.352452,
344,-0.00224039,344,0.286608,344,0.548302,344,0.0342905,344,0.318152,344,0.589303,344,0.608673,344,0.346016,
335,-0.00158681,335,0.303614,335,0.533009,335,0.0341688,335,0.334316,335,0.572509,335,0.591582,335,0.362282,
326,-0.000980178,326,0.32106,326,0.53438,326,0.0344258,326,0.351751,326,0.572289,326,0.591987,326,0.380156,
317,-0.000341612,317,0.347586,317,0.531162,317,0.0352728,317,0.378152,317,0.568648,317,0.58904,317,0.407718,
308,0.00124527,308,0.395408,308,0.494098,308,0.0375284,308,0.426114,308,0.531241,308,0.554024,308,0.457093,
300,0.00375215,300,0.440942,300,0.463332,300,0.0413127,300,0.47204,300,0.501174,300,0.527129,300,0.505391,

File: 14-17.csv
PDMS,,PDMS-90,,PDMS-0,,K1S-spin,,K1S-spin-90,,K1S-spin-0,,K1S-ff-3mms,,K1S-ff-3mms-90,,K1S-ff-3mms-0,,K1S-lf-3mms,,K1S-lf-3mms-90,,K1S-lf-3mms-0,,K1S-lf-3mms-2,,K1S-lf-3mms-2-90,,K1S-lf-3mms-2-0,,
Wavelength (nm),Abs,Wavelength (nm),Abs,Wavelength (nm),Abs,Wavelength (nm),Abs,Wavelength (nm),Abs,Wavelength (nm),Abs,Wavelength (nm),Abs,Wavelength (nm),Abs,Wavelength (nm),Abs,Wavelength (nm),Abs,Wavelength (nm),Abs,Wavelength (nm),Abs,Wavelength (nm),Abs,Wavelength (nm),Abs,Wavelength (nm),Abs,
1100,0.525376,1100,1.22055,1100,0.761137,1100,0.470515,1100,1.13455,1100,0.781081,1100,0.816571,1100,1.47939,1100,1.00801,1100,0.548179,1100,1.17177,1100,0.793619,1100,0.681318,1100,1.32067,1100,0.899315,
1088,0.526333,1088,1.19877,1088,0.77442,1088,0.470664,1088,1.11292,1088,0.793489,1088,0.817312,1088,1.45756,1088,1.02169,1088,0.549287,1088,1.15071,1088,0.807084,1088,0.682431,1088,1.30078,1088,0.912852,
1076,0.526218,1076,1.18824,1076,0.779739,1076,0.470755,1076,1.1032,1076,0.799998,1076,0.817473,1076,1.4473,1076,1.02669,1076,0.550039,1076,1.14164,1076,0.813525,1076,0.683151,1076,1.29201,1076,0.9193,
1064,0.525447,1064,1.17828,1064,0.785095,1064,0.470153,1064,1.09303,1064,0.805492,1064,0.816696,1064,1.43739,1064,1.03217,1064,0.550223,1064,1.13247,1064,0.819712,1064,0.683279,1064,1.28306,1064,0.925247,
1052,0.525778,1052,1.16892,1052,0.791196,1052,0.47052,1052,1.08402,1052,0.812422,1052,0.817731,1052,1.42822,1052,1.03842,1052,0.551495,1052,1.12451,1052,0.827229,1052,0.684578,1052,1.27514,1052,0.932422,
1040,0.526089,1040,1.16006,1040,0.797762,1040,0.470998,1040,1.07539,1040,0.819452,1040,0.818655,1040,1.4203,1040,1.04513,1040,0.553359,1040,1.11753,1040,0.835199,1040,0.686249,1040,1.26785,1040,0.940337,
1028,0.528232,1028,1.15256,1028,0.805614,1028,0.473054,1028,1.06849,1028,0.828557,1028,0.821312,1028,1.41358,1028,1.05387,1028,0.556931,1028,1.11237,1028,0.84527,1028,0.689621,1028,1.26246,1028,0.950258,
1016,0.52907,1016,1.14448,1016,0.813615,1016,0.474582,1016,1.06082,1016,0.8373,1016,0.82343,1016,1.40681,1016,1.06213,1016,0.560419,1016,1.10709,1016,0.855435,1016,0.693174,1016,1.25711,1016,0.9602,
1004,0.528501,1004,1.13377,1004,0.820002,1004,0.473943,1004,1.05113,1004,0.844736,1004,0.824099,1004,1.39747,1004,1.06946,1004,0.562367,1004,1.10018,1004,0.8646,1004,0.694756,1004,1.24967,1004,0.969047,
992,0.528361,992,1.12396,992,0.827725,992,0.474304,992,1.04178,992,0.853612,992,0.825725,992,1.38966,992,1.07748,992,0.565847,992,1.09474,992,0.875892,992,0.698295,992,1.24413,992,0.979902,
980,0.52874,980,1.11316,980,0.836053,980,0.474659,980,1.03234,980,0.86346,980,0.828324,980,1.38178,980,1.08788,980,0.570703,980,1.08961,980,0.888844,980,0.702483,980,1.2386,980,0.992091,
968,0.528653,968,1.10253,968,0.846061,968,0.475816,968,1.02241,968,0.875171,968,0.832196,968,1.37503,968,1.09908,968,0.576977,968,1.08571,968,0.904233,968,0.708698,968,1.2347,968,1.00693,
956,0.530239,956,1.09098,956,0.857167,956,0.477377,956,1.01278,956,0.888679,956,0.83718,956,1.36793,956,1.11352,956,0.584919,956,1.08245,956,0.922056,956,0.715912,956,1.2311,956,1.02393,
944,0.529953,944,1.07786,944,0.869144,944,0.478733,944,1.00133,944,0.903381,944,0.842264,944,1.36006,944,1.12755,944,0.593054,944,1.07911,944,0.941736,944,0.724035,944,1.22725,944,1.04239,
932,0.53259,932,1.06499,932,0.883904,932,0.481015,932,0.990967,932,0.920731,932,0.850367,932,1.35399,932,1.1467,932,0.603988,932,1.07744,932,0.964819,932,0.734408,932,1.22575,932,1.06457,
920,0.534947,920,1.05192,920,0.900684,920,0.484646,920,0.981089,920,0.940975,920,0.860805,920,1.34864,920,1.1672,920,0.61632,920,1.07752,920,0.991006,920,0.746845,920,1.22557,920,1.08968,
908,0.544209,908,1.04252,908,0.924008,908,0.494109,908,0.977002,908,0.968859,908,0.87777,908,1.3488,908,1.1965,908,0.635724,908,1.08383,908,1.02535,908,0.766153,908,1.23158,908,1.12264,
896,0.541582,896,1.02192,896,0.938351,896,0.491836,896,0.960575,896,0.987011,896,0.884556,896,1.33814,896,1.21521,896,0.644144,896,1.07956,896,1.05019,896,0.774722,896,1.22705,896,1.14605,
884,0.544916,884,1.00468,884,0.958536,884,0.494747,884,0.949881,884,1.01211,884,0.896906,884,1.3326,884,1.242,884,0.658455,884,1.08117,884,1.0819,884,0.789453,884,1.22855,884,1.1762,
872,0.549047,872,0.989274,872,0.980895,872,0.499125,872,0.941213,872,1.03985,872,0.912235,872,1.32945,872,1.27045,872,0.673792,872,1.08497,872,1.11532,872,0.806278,872,1.23263,872,1.20827,
860,0.554841,860,0.974466,860,1.00364,860,0.504143,860,0.934537,860,1.068,860,0.926498,860,1.32576,860,1.29907,860,0.688074,860,1.0885,860,1.14707,860,0.822573,860,1.2365,860,1.23907,
848,0.560289,848,0.962662,848,1.02543,848,0.509444,848,0.929019,848,1.09422,848,0.93895,848,1.32066,848,1.32426,848,0.697883,848,1.08929,848,1.17369,848,0.835584,848,1.23733,848,1.26526,
836,0.564773,836,0.952452,836,1.04367,836,0.513701,836,0.92407,836,1.11553,836,0.944739,836,1.31244,836,1.34323,836,0.701683,836,1.08511,836,1.19286,836,0.841889,836,1.23233,836,1.2842,
824,0.567961,824,0.94586,824,1.05839,824,0.517111,824,0.919919,824,1.13143,824,0.947167,824,1.30334,824,1.35623,824,0.700769,824,1.07788,824,1.20473,824,0.842944,824,1.22427,824,1.29656,
812,0.57068,812,0.94082,812,1.07016,812,0.519871,812,0.916939,812,1.14347,812,0.946853,812,1.29484,812,1.36552,812,0.698642,812,1.07045,812,1.2131,812,0.841819,812,1.21577,812,1.30525,
800,0.574529,800,0.937607,800,1.0813,800,0.52433,800,0.915768,800,1.15525,800,0.948572,800,1.28817,800,1.37443,800,0.697985,800,1.06577,800,1.22173,800,0.842417,800,1.20954,800,1.31418,
788,0.664201,788,1.50547,788,0.822353,788,0.793702,788,1.62917,788,0.984882,788,0.974289,788,1.83183,788,1.10361,788,0.831954,788,1.69765,788,0.991505,788,0.917077,788,1.80413,788,1.06629,
776,0.663827,776,1.50964,776,0.819937,776,0.793072,776,1.63392,776,0.982616,776,0.971652,776,1.83436,776,1.09944,776,0.829486,776,1.70043,776,0.987565,776,0.914372,776,1.80606,776,1.06219,
764,0.663194,764,1.51711,764,0.816817,764,0.792022,764,1.63998,764,0.978969,764,0.968051,764,1.83785,764,1.09411,764,0.825834,764,1.70402,764,0.981821,764,0.911002,764,1.80949,764,1.05664,
752,0.662447,752,1.52715,752,0.812897,752,0.789592,752,1.64898,752,0.973481,752,0.962612,752,1.84248,752,1.08615,752,0.819789,752,1.70831,752,0.973402,752,0.90478,752,1.81215,752,1.04827,
740,0.66174,740,1.5421,740,0.808533,740,0.786539,740,1.66033,740,0.966085,740,0.956231,740,1.8493,740,1.0768,740,0.812082,740,1.71394,740,0.962487,740,0.897525,740,1.81691,740,1.03774,
728,0.660486,728,1.56049,728,0.801713,728,0.781638,728,1.67619,728,0.955097,728,0.948007,728,1.85939,728,1.06414,728,0.802102,728,1.72305,728,0.948316,728,0.887924,728,1.82414,728,1.02413,
716,0.659185,716,1.5878,716,0.794305,716,0.776806,716,1.69909,716,0.943238,716,0.939898,716,1.87797,716,1.05054,716,0.792527,716,1.73971,716,0.933222,716,0.878444,716,1.83938,716,1.00937,
704,0.6583,704,1.62507,704,0.785211,704,0.772009,704,1.73311,704,0.930039,704,0.931865,704,1.90682,704,1.0358,704,0.783152,704,1.76712,704,0.916819,704,0.869094,704,1.86539,704,0.993381,
692,0.657038,692,1.67602,692,0.775118,692,0.767313,692,1.77954,692,0.915305,692,0.924228,692,1.94967,692,1.01982,692,0.774012,692,1.80791,692,0.899359,692,0.860217,692,1.90539,692,0.976276,
[...]
Collection Time: 7/1/2016 11:07:34 AM,,,,,,,,,,,,,,,,,,,,,,,,,,,,,,
Operator Name  :,,,,,,,,,,,,,,,,,,,,,,,,,,,,,,
Scan Version 6.0.0.1551,,,,,,,,,,,,,,,,,,,,,,,,,,,,,,
Parameter List :,,,,,,,,,,,,,,,,,,,,,,,,,,,,,,
Instrument  Cary 6000i,,,,,,,,,,,,,,,,,,,,,,,,,,,,,,
Instrument Version  2.23,,,,,,,,,,,,,,,,,,,,,,,,,,,,,,
Method Log     :,,,,,,,,,,,,,,,,,,,,,,,,,,,,,,
Method Name    :,,,,,,,,,,,,,,,,,,,,,,,,,,,,,,
Date/Time stamp: 7/1/2016 10:13:34 AM,,,,,,,,,,,,,,,,,,,,,,,,,,,,,,
Method Modifications:,,,,,,,,,,,,,,,,,,,,,,,,,,,,,,
X Start nm Changed: 7/1/2016 10:18:54 AM,Old:800.000,New:1100.000,,,,,,,,,,,,,,,,,,,,,,,,,,,,
X Stop nm Changed: 7/1/2016 10:18:54 AM,Old:200.000,New:500.000,,,,,,,,,,,,,,,,,,,,,,,,,,,,
UVVIS Scan Rate nm Changed: 7/1/2016 10:18:54 AM,Old:  602.007,New:  600.000,,,,,,,,,,,,,,,,,,,,,,,,,,,,
NIR Scan Rate nm Changed: 7/1/2016 10:18:54 AM,Old:  602.007,New:  600.000,,,,,,,,,,,,,,,,,,,,,,,,,,,,
UVVIS Interval EV Changed: 7/1/2016 10:18:54 AM,Old:0.00015,New:0.00015,,,,,,,,,,,,,,,,,,,,,,,,,,,,
NIR Interval EV Changed: 7/1/2016 10:18:54 AM,Old:0.00015,New:0.00015,,,,,,,,,,,,,,,,,,,,,,,,,,,,
Common Interval EV Changed: 7/1/2016 10:18:54 AM,Old:0.00015,New:0.00015,,,,,,,,,,,,,,,,,,,,,,,,,,,,
Baseline Correction Changed: 7/1/2016 10:18:54 AM,Old:0,New:1,,,,,,,,,,,,,,,,,,,,,,,,,,,,
Sipper Type Changed: 7/1/2016 10:18:54 AM, Old:Internal RSA, New:External sipper,,,,,,,,,,,,,,,,,,,,,,,,,,,,
Autoconvert Changed: 7/1/2016 10:22:00 AM, Old:None, New:Ascii,,,,,,,,,,,,,,,,,,,,,,,,,,,,
End Method Modifications,,,,,,,,,,,,,,,,,,,,,,,,,,,,,,
<Current Wavelength> ,500.000,,,,,,,,,,,,,,,,,,,,,,,,,,,,,
<SBW (nm)> ,2.00,,,,,,,,,,,,,,,,,,,,,,,,,,,,,
<Energy> ,3.47,,,,,,,,,,,,,,,,,,,,,,,,,,,,,
<Slit Height> , Full,,,,,,,,,,,,,,,,,,,,,,,,,,,,,
,,,,,,,,,,,,,,,,,,,,,,,,,,,,,,
K1S-pf-3mms,,,,,,,,,,,,,,,,,,,,,,,,,,,,,,
K1S-pf-3mms,,,,,,,,,,,,,,,,,,,,,,,,,,,,,,
Collection Time: 7/1/2016 11:13:44 AM,,,,,,,,,,,,,,,,,,,,,,,,,,,,,,
Operator Name  :,,,,,,,,,,,,,,,,,,,,,,,,,,,,,,
Scan Version 6.0.0.1551,,,,,,,,,,,,,,,,,,,,,,,,,,,,,,
Parameter List :,,,,,,,,,,,,,,,,,,,,,,,,,,,,,,
Instrument  Cary 6000i,,,,,,,,,,,,,,,,,,,,,,,,,,,,,,
Instrument Version  2.23,,,,,,,,,,,,,,,,,,,,,,,,,,,,,,
Method Log     :,,,,,,,,,,,,,,,,,,,,,,,,,,,,,,
Method Name    :,,,,,,,,,,,,,,,,,,,,,,,,,,,,,,
Date/Time stamp: 7/1/2016 10:13:34 AM,,,,,,,,,,,,,,,,,,,,,,,,,,,,,,
Method Modifications:,,,,,,,,,,,,,,,,,,,,,,,,,,,,,,
X Start nm Changed: 7/1/2016 10:18:54 AM,Old:800.000,New:1100.000,,,,,,,,,,,,,,,,,,,,,,,,,,,,
X Stop nm Changed: 7/1/2016 10:18:54 AM,Old:200.000,New:500.000,,,,,,,,,,,,,,,,,,,,,,,,,,,,
UVVIS Scan Rate nm Changed: 7/1/2016 10:18:54 AM,Old:  602.007,New:  600.000,,,,,,,,,,,,,,,,,,,,,,,,,,,,
NIR Scan Rate nm Changed: 7/1/2016 10:18:54 AM,Old:  602.007,New:  600.000,,,,,,,,,,,,,,,,,,,,,,,,,,,,
UVVIS Interval EV Changed: 7/1/2016 10:18:54 AM,Old:0.00015,New:0.00015,,,,,,,,,,,,,,,,,,,,,,,,,,,,
NIR Interval EV Changed: 7/1/2016 10:18:54 AM,Old:0.00015,New:0.00015,,,,,,,,,,,,,,,,,,,,,,,,,,,,
Common Interval EV Changed: 7/1/2016 10:18:54 AM,Old:0.00015,New:0.00015,,,,,,,,,,,,,,,,,,,,,,,,,,,,
Baseline Correction Changed: 7/1/2016 10:18:54 AM,Old:0,New:1,,,,,,,,,,,,,,,,,,,,,,,,,,,,
Sipper Type Changed: 7/1/2016 10:18:54 AM, Old:Internal RSA, New:External sipper,,,,,,,,,,,,,,,,,,,,,,,,,,,,
Autoconvert Changed: 7/1/2016 10:22:00 AM, Old:None, New:Ascii,,,,,,,,,,,,,,,,,,,,,,,,,,,,
End Method Modifications,,,,,,,,,,,,,,,,,,,,,,,,,,,,,,
<Current Wavelength> ,500.000,,,,,,,,,,,,,,,,,,,,,,,,,,,,,
<SBW (nm)> ,2.00,,,,,,,,,,,,,,,,,,,,,,,,,,,,,
<Energy> ,3.47,,,,,,,,,,,,,,,,,,,,,,,,,,,,,
<Slit Height> , Full,,,,,,,,,,,,,,,,,,,,,,,,,,,,,