Folder: IEEEPolybot/experiments/exp1

Note: README.md
# Polybot

[![Build Status](https://travis-ci.com/materials-data-facility/polybot.svg?branch=master)](https://travis-ci.com/materials-data-facility/polybot)
[![Coverage Status](https://coveralls.io/repos/github/materials-data-facility/polybot/badge.svg?branch=master)](https://coveralls.io/github/materials-data-facility/polybot?branch=master)

A server for controlling the robot synthesis of thin-film polymeric materials.

## Installation

We describe our full environment using an Anaconda environment file,
[`environment.yml`](./environment.yml).
Install it by calling:

`conda env create --file environment.yml`

The package requirements are also listed in [`requirements.txt`](./requirements.txt),
which you can use to build the environment using `pip`:

`pip install -e .`

## Running Polybot

Activate the environment, if you used Anaconda,
and then call `./run.sh` to 
launch a server that is accessible from localhost only.

## Using Polybot

Polybot comes with a command line interface, also named "`polybot`".

At present, the only command is to upload data to the server:

`polybot upload experiment_name file.csv`

Call `polybot --help` to see the full list of operations.

File: dichroic_data.csv
pdms,,pdms-0,,pdms-90,,0,,0-0,,0-90,,0.5,,0.5-0,,0.5-90,,1,,1-90beforenow1,,1-0,,2,,2-0,,2-90,,6,,6-0,,6-90,,10,,10-0,,10-90,,6-2,,6-2-0,,6-2-90,,flat3mms,,flat3mms-0,,flat3mms-90,,pillar3mms,,pillar3mms-0,,pillar3mms-90,,10-2,,10-2–0,,10-2–90,,3mms,,3mms-0,,3mms-90,,
Wavelength (nm),Abs,Wavelength (nm),Abs,Wavelength (nm),Abs,Wavelength (nm),Abs,Wavelength (nm),Abs,Wavelength (nm),Abs,Wavelength (nm),Abs,Wavelength (nm),Abs,Wavelength (nm),Abs,Wavelength (nm),Abs,Wavelength (nm),Abs,Wavelength (nm),Abs,Wavelength (nm),Abs,Wavelength (nm),Abs,Wavelength (nm),Abs,Wavelength (nm),Abs,Wavelength (nm),Abs,Wavelength (nm),Abs,Wavelength (nm),Abs,Wavelength (nm),Abs,Wavelength (nm),Abs,Wavelength (nm),Abs,Wavelength (nm),Abs,Wavelength (nm),Abs,Wavelength (nm),Abs,Wavelength (nm),Abs,Wavelength (nm),Abs,Wavelength (nm),Abs,Wavelength (nm),Abs,Wavelength (nm),Abs,Wavelength (nm),Abs,Wavelength (nm),Abs,Wavelength (nm),Abs,Wavelength (nm),Abs,Wavelength (nm),Abs,Wavelength (nm),Abs,
1100,-1.71362e-05,1100,0.255879,1100,0.508509,1100,0.0264008,1100,0.281088,1100,0.536758,1100,0.00069168,1100,0.257979,1100,0.508667,1100,0.505152,1100,-0.000402599,1100,0.255935,1100,0.00213329,1100,0.257349,1100,0.507502,1100,0.0102655,1100,0.265452,1100,0.524925,1100,0.0265478,1100,0.282668,1100,0.534498,1100,0.00503291,1100,0.25811,1100,0.510321,1100,-0.00145891,1100,0.253664,1100,0.502279,1100,0.00166437,1100,0.258362,1100,0.506077,1100,0.0154763,1100,0.271122,1100,0.518757,1100,-0.00023524,1100,0.253711,1100,0.502792,
1070,-0.00102677,1070,0.275754,1070,0.47734,1070,0.0288982,1070,0.304204,1070,0.509155,1070,0.00015713,1070,0.278208,1070,0.478133,1070,0.474816,1070,-0.00075542,1070,0.276436,1070,0.00180588,1070,0.277768,1070,0.477365,1070,0.0107671,1070,0.286598,1070,0.495334,1070,0.0287073,1070,0.305762,1070,0.506352,1070,0.00586947,1070,0.27939,1070,0.481442,1070,-0.00140618,1070,0.274385,1070,0.472605,1070,0.00235563,1070,0.279482,1070,0.477293,1070,0.0171779,1070,0.293572,1070,0.490842,1070,-7.14394e-05,1070,0.274472,1070,0.473576,
1040,-0.0014553,1040,0.290696,1040,0.457939,1040,0.0338554,1040,0.324024,1040,0.495325,1040,0.000886645,1040,0.294139,1040,0.46003,1040,0.456872,1040,0.000157234,1040,0.292669,1040,0.0022403,1040,0.293778,1040,0.459409,1040,0.013037,1040,0.303798,1040,0.478667,1040,0.0331603,1040,0.325751,1040,0.491808,1040,0.00807271,1040,0.296225,1040,0.464756,1040,-0.000494761,1040,0.290388,1040,0.454806,1040,0.00426469,1040,0.296337,1040,0.460628,1040,0.0205911,1040,0.312287,1040,0.475438,1040,0.00129506,1040,0.290574,1040,0.456313,
1010,-0.000516532,1010,0.308612,1010,0.439548,1010,0.0433701,1010,0.349773,1010,0.486084,1010,0.00360544,1010,0.313413,1010,0.443848,1010,0.440605,1010,0.00315072,1010,0.312438,1010,0.00485123,1010,0.313162,1010,0.443178,1010,0.0180536,1010,0.325041,1010,0.465061,1010,0.0420611,1010,0.35138,1010,0.481633,1010,0.0129634,1010,0.317001,1010,0.450782,1010,0.00219997,1010,0.309774,1010,0.438747,1010,0.0086843,1010,0.316958,1010,0.446728,1010,0.027205,1010,0.335577,1010,0.463278,1010,0.00481493,1010,0.310386,1010,0.441408,
980,-0.0018664,980,0.32725,980,0.417291,980,0.0568223,980,0.381806,980,0.47986,980,0.00608063,980,0.335251,980,0.425995,980,0.422603,980,0.00582988,980,0.335018,980,0.00747701,980,0.335375,980,0.425488,980,0.025272,980,0.350948,980,0.452586,980,0.0554314,980,0.38399,980,0.475226,980,0.0192631,980,0.341662,980,0.436785,980,0.00535551,980,0.33219,980,0.421539,980,0.0149141,980,0.341419,980,0.433426,980,0.0364254,980,0.364272,980,0.452438,980,0.00951237,980,0.333792,980,0.426724,
950,-0.0017259,950,0.353063,950,0.392459,950,0.0800375,950,0.427461,950,0.480781,950,0.0136275,950,0.367195,950,0.409559,950,0.406317,950,0.0139039,950,0.367914,950,0.0151271,950,0.367424,950,0.409315,950,0.0404577,950,0.389097,950,0.445016,950,0.0804922,950,0.431411,950,0.478586,950,0.0322808,950,0.377008,950,0.425768,950,0.0132356,950,0.364187,950,0.405474,950,0.0281005,950,0.376841,950,0.424015,950,0.052775,950,0.404312,950,0.445478,950,0.0206675,950,0.367902,950,0.415087,
920,-0.000867245,920,0.388037,920,0.363474,920,0.112759,920,0.488122,920,0.488588,920,0.0266293,920,0.41222,920,0.394203,920,0.39221,920,0.0282572,920,0.414944,920,0.0290777,920,0.413222,920,0.394986,920,0.0650473,920,0.443336,920,0.442883,920,0.119182,920,0.496786,920,0.493684,920,0.0520824,920,0.426521,920,0.417529,920,0.0267495,920,0.409247,920,0.39089,920,0.0497126,920,0.426909,920,0.419032,920,0.0765598,920,0.458424,920,0.442756,920,0.039326,920,0.416425,920,0.407181,
890,-0.00134579,890,0.43149,890,0.329707,890,0.155759,890,0.56288,890,0.506053,890,0.0441711,890,0.470466,890,0.380027,890,0.380384,890,0.0481867,890,0.476464,890,0.0494543,890,0.473487,890,0.383769,890,0.0990275,890,0.513875,890,0.447315,890,0.173145,890,0.57958,890,0.523453,890,0.0779878,890,0.489478,890,0.412054,890,0.0456375,890,0.467764,890,0.378462,890,0.0799353,890,0.492091,890,0.419453,890,0.108422,890,0.525962,890,0.446237,890,0.0663873,890,0.480175,890,0.404744,
860,-0.00195995,860,0.481343,860,0.296924,860,0.204641,860,0.643444,860,0.53235,860,0.0642047,860,0.537528,860,0.369096,860,0.373672,860,0.0717059,860,0.547537,860,0.0750962,860,0.543946,860,0.378436,860,0.138175,860,0.593697,860,0.457516,860,0.233446,860,0.669101,860,0.560696,860,0.105926,860,0.559846,860,0.409887,860,0.0678699,860,0.535057,860,0.370128,860,0.114869,860,0.56659,860,0.425369,860,0.145173,860,0.600731,860,0.456143,860,0.0988869,860,0.554144,860,0.408693,
830,-0.00201427,830,0.523166,830,0.27436,830,0.220223,830,0.690724,830,0.527656,830,0.0716691,830,0.585843,830,0.353966,830,0.360919,830,0.0807049,830,0.597091,830,0.0857316,830,0.593563,830,0.366059,830,0.15148,830,0.644196,830,0.448014,830,0.249024,830,0.718147,830,0.553406,830,0.114244,830,0.606735,830,0.396121,830,0.0757606,830,0.582466,830,0.35565,830,0.126447,830,0.61601,830,0.414097,830,0.156696,830,0.64789,830,0.446399,830,0.111408,830,0.604444,830,0.399069,
800,-0.001903,800,0.548946,800,0.263036,800,0.207591,800,0.705601,800,0.500242,800,0.0676692,800,0.608421,800,0.337885,800,0.344338,800,0.0761797,800,0.618799,800,0.0807041,800,0.615194,800,0.348808,800,0.1415,800,0.661727,800,0.424313,800,0.231367,800,0.73011,800,0.519885,800,0.106168,800,0.62678,800,0.37584,800,0.070679,800,0.60425,800,0.33823,800,0.11728,800,0.635504,800,0.391698,800,0.147093,800,0.66544,800,0.423422,800,0.104687,800,0.625149,800,0.379123,
770,0.00684166,770,0.18929,770,0.705479,770,0.167506,770,0.336507,770,0.920833,770,0.0561473,770,0.240835,770,0.761619,770,0.761272,770,0.0630571,770,0.239236,770,0.0801705,770,0.252233,770,0.797862,770,0.124372,770,0.298236,770,0.857733,770,0.197121,770,0.362649,770,0.941533,770,0.0756095,770,0.247216,770,0.78209,770,0.055358,770,0.228566,770,0.755081,770,0.076951,770,0.250512,770,0.791181,770,0.132913,770,0.296768,770,0.849876,770,0.0955526,770,0.254424,770,0.797742,
740,0.00722819,740,0.182391,740,0.731078,740,0.150466,740,0.315016,740,0.922095,740,0.0504375,740,0.228297,740,0.779179,740,0.779139,740,0.057211,740,0.226546,740,0.0730174,740,0.238628,740,0.812985,740,0.110505,740,0.279003,740,0.864758,740,0.177697,740,0.339239,740,0.939616,740,0.0657018,740,0.231685,740,0.794576,740,0.0484973,740,0.215272,740,0.771172,740,0.0657063,740,0.234239,740,0.800835,740,0.119762,740,0.278505,740,0.857717,740,0.0848055,740,0.238128,740,0.808197,
710,0.00663888,710,0.167445,710,0.782826,710,0.123342,710,0.277974,710,0.937908,710,0.0401613,710,0.204095,710,0.8191,710,0.819177,710,0.046654,710,0.202733,710,0.0608298,710,0.213579,710,0.849431,710,0.0888836,710,0.245669,710,0.890424,710,0.147175,710,0.298764,710,0.952328,710,0.0499943,710,0.204081,710,0.827246,710,0.0372861,710,0.191097,710,0.809242,710,0.0482207,710,0.205463,710,0.82951,710,0.0990492,710,0.246322,710,0.882805,710,0.0683188,710,0.209552,710,0.837964,
680,0.00639156,680,0.145242,680,0.886574,680,0.0993272,680,0.235751,680,1.00952,680,0.03105,680,0.173855,680,0.910927,680,0.911369,680,0.0375177,680,0.172688,680,0.0505419,680,0.182551,680,0.938163,680,0.0705472,680,0.207505,680,0.972054,680,0.119919,680,0.253467,680,1.02098,680,0.0367321,680,0.17109,680,0.91291,680,0.0282116,680,0.161246,680,0.899211,680,0.0336296,680,0.171715,680,0.911386,680,0.0810693,680,0.208679,680,0.961007,680,0.0545269,680,0.175948,680,0.92054,
650,0.0064942,650,0.135751,650,0.96437,650,0.0786407,650,0.207397,650,1.06023,650,0.0231666,650,0.156548,650,0.979051,650,0.980173,650,0.0298852,650,0.155952,650,0.0423953,650,0.165257,650,1.00516,650,0.0555153,650,0.183879,650,1.0317,650,0.0959109,650,0.221545,650,1.0689,650,0.0249467,650,0.150897,650,0.975901,650,0.0201135,650,0.14404,650,0.966708,650,0.021084,650,0.15106,650,0.972372,650,0.064985,650,0.184088,650,1.01808,650,0.0428275,650,0.155413,650,0.982342,
620,0.0064879,620,0.162407,620,0.837394,620,0.0638164,620,0.218734,620,0.914008,620,0.0176599,620,0.1773,620,0.848057,620,0.849912,620,0.0241131,620,0.17695,620,0.0365105,620,0.186048,620,0.8749,620,0.0451688,620,0.199931,620,0.889766,620,0.0776388,620,0.229502,620,0.921307,620,0.0160218,620,0.169034,620,0.842304,620,0.0140193,620,0.164633,620,0.837256,620,0.0121348,620,0.169093,620,0.838999,620,0.0522557,620,0.198003,620,0.881035,620,0.0340482,620,0.173572,620,0.849872,
590,0.00686656,590,0.177323,590,0.788074,590,0.0527951,590,0.222463,590,0.850073,590,0.0137476,590,0.188011,590,0.79521,590,0.797691,590,0.0205845,590,0.187934,590,0.0333971,590,0.196974,590,0.822868,590,0.0385899,590,0.207868,590,0.83117,590,0.0637575,590,0.230162,590,0.855811,590,0.0103773,590,0.178152,590,0.788148,590,0.010377,590,0.175303,590,0.785943,590,0.0062377,590,0.177921,590,0.784736,590,0.0439131,590,0.203753,590,0.823818,590,0.0294118,590,0.182603,590,0.796559,
560,0.0066945,560,0.254582,560,0.583959,560,0.0472538,560,0.292678,560,0.637116,560,0.0118956,560,0.263186,560,0.590192,560,0.593073,560,0.0184267,560,0.263066,560,0.0310185,560,0.271832,560,0.618719,560,0.0353358,560,0.281477,560,0.620704,560,0.0562976,560,0.29841,560,0.641844,560,0.00832265,560,0.253405,560,0.584041,560,0.00926267,560,0.251402,560,0.583345,560,0.00469478,560,0.253257,560,0.581178,560,0.0394474,560,0.276159,560,0.617532,560,0.0271547,560,0.257874,560,0.593255,
530,0.00658069,530,0.250521,530,0.599524,530,0.0430057,530,0.285103,530,0.648056,530,0.0110131,530,0.258339,530,0.604677,530,0.607683,530,0.0173988,530,0.25826,530,0.0299392,530,0.267062,530,0.633099,530,0.0336854,530,0.276101,530,0.634321,530,0.0509322,530,0.289968,530,0.651317,530,0.00780385,530,0.249232,530,0.598774,530,0.00910557,530,0.247622,530,0.598652,530,0.00427149,530,0.249254,530,0.595766,530,0.0367936,530,0.270015,530,0.630119,530,0.0266668,530,0.253922,530,0.608117,
500,0.00658897,500,0.241367,500,0.62879,500,0.0418409,500,0.274933,500,0.676532,500,0.0110323,500,0.249284,500,0.633905,500,0.637058,500,0.0174668,500,0.249147,500,0.0301244,500,0.257909,500,0.662393,500,0.0339869,500,0.267254,500,0.663872,500,0.0499917,500,0.280084,500,0.679484,500,0.00826468,500,0.240509,500,0.628218,500,0.00957178,500,0.238846,500,0.628185,500,0.00489204,500,0.240806,500,0.625376,500,0.0361582,500,0.260201,500,0.658682,500,0.0273852,500,0.245336,500,0.637663,